File: files/MFLI_Zview_txt_imps_0_sample_00000.txt
ZPLOT2 ASCII
  Saved Data, ZView:          3
  Experiment Type:            Sweep Frequency, Control Voltage
  Date:                       01-01-1970
  Time:                       01:28:03
  Open Circuit Potential (V): 0
  Begin User Comments:        0
  End User Comments:          0
  Begin Information:          Cell Information
    Surface Area:             1
    Density:                  0
    Weight:                   0
    Polarity:                 0
    PolarityI:                0
    Corrosion Unit Type:      0
    Reference Type:           0
    Reference Potential:      0
    User-Defined Potential:   0
    Stern-Geary:              26
  End Information:            Cell Information
  Null Configuration:         0,2,0,1,0.001,1000000
  Data Points:                120
  Freq(Hz)	Ampl	Bias	Time(Sec)	Z'(a)	Z''(b)	Aux	Err	Range
End Comments
5e+06	1.000061e-01	0.000000e+00	0.000000e+00	2.623363e+03	-4.420820e+03	0.0000E+00	0	0
4.22542e+06	1.000061e-01	0.000000e+00	3.046400e-02	2.863347e+03	-5.297117e+03	0.0000E+00	0	0
3.57083e+06	1.000061e-01	0.000000e+00	5.010133e-02	3.156690e+03	-6.293704e+03	0.0000E+00	0	0
3.01765e+06	1.000061e-01	0.000000e+00	7.825067e-02	3.527718e+03	-7.412827e+03	0.0000E+00	0	0
2.55016e+06	1.000061e-01	0.000000e+00	1.005760e-01	3.992897e+03	-8.671755e+03	0.0000E+00	0	0
2.1551e+06	1.000061e-01	0.000000e+00	1.302187e-01	4.595394e+03	-1.009394e+04	0.0000E+00	0	0
1.82124e+06	1.000061e-01	0.000000e+00	1.515733e-01	5.321135e+03	-1.165914e+04	0.0000E+00	0	0
1.5391e+06	1.000061e-01	0.000000e+00	1.807680e-01	6.247663e+03	-1.339395e+04	0.0000E+00	0	0
1.30066e+06	1.000061e-01	0.000000e+00	2.001067e-01	7.375747e+03	-1.531282e+04	0.0000E+00	0	0
1.09917e+06	1.000061e-01	0.000000e+00	2.323627e-01	8.778679e+03	-1.738360e+04	0.0000E+00	0	0
928890	1.000061e-01	0.000000e+00	2.732800e-01	1.048232e+04	-1.959903e+04	0.0000E+00	0	0
784989	1.000061e-01	0.000000e+00	2.997120e-01	1.253801e+04	-2.193632e+04	0.0000E+00	0	0
663381	1.000061e-01	0.000000e+00	9.000320e-01	1.483152e+04	-2.418360e+04	0.0000E+00	0	0
560612	1.000061e-01	0.000000e+00	9.360960e-01	1.769043e+04	-2.667297e+04	0.0000E+00	0	0
473764	1.000061e-01	0.000000e+00	9.724587e-01	2.102358e+04	-2.914191e+04	0.0000E+00	0	0
400370	1.000061e-01	0.000000e+00	1.004341e+00	2.480928e+04	-3.147138e+04	0.0000E+00	0	0
338346	1.000061e-01	0.000000e+00	1.031744e+00	2.906000e+04	-3.359633e+04	0.0000E+00	0	0
285930	1.000061e-01	0.000000e+00	1.052053e+00	3.369216e+04	-3.539961e+04	0.0000E+00	0	0
241635	1.000061e-01	0.000000e+00	1.082667e+00	3.866941e+04	-3.681454e+04	0.0000E+00	0	0
204201	1.000061e-01	0.000000e+00	1.112683e+00	4.389729e+04	-3.777794e+04	0.0000E+00	0	0
172567	1.000061e-01	0.000000e+00	1.135904e+00	4.925200e+04	-3.822178e+04	0.0000E+00	0	0
145834	1.000061e-01	0.000000e+00	1.171520e+00	5.464031e+04	-3.816424e+04	0.0000E+00	0	0
123242	1.000061e-01	0.000000e+00	1.204299e+00	5.991569e+04	-3.762114e+04	0.0000E+00	0	0
104149	1.000061e-01	0.000000e+00	1.231776e+00	6.501906e+04	-3.662370e+04	0.0000E+00	0	0
88014.8	1.000061e-01	0.000000e+00	1.258731e+00	6.980973e+04	-3.521865e+04	0.0000E+00	0	0
74379.8	1.000061e-01	0.000000e+00	1.289792e+00	7.425441e+04	-3.353045e+04	0.0000E+00	0	0
62857.2	1.000061e-01	0.000000e+00	1.338101e+00	7.832184e+04	-3.162043e+04	0.0000E+00	0	0
53119.5	1.000061e-01	0.000000e+00	1.374837e+00	8.197370e+04	-2.956409e+04	0.0000E+00	0	0
44890.4	1.000061e-01	0.000000e+00	1.408512e+00	8.523451e+04	-2.742687e+04	0.0000E+00	0	0
37936.1	1.000061e-01	0.000000e+00	1.438603e+00	8.812696e+04	-2.530079e+04	0.0000E+00	0	0
32059.2	1.000061e-01	0.000000e+00	1.476160e+00	9.065941e+04	-2.320607e+04	0.0000E+00	0	0
27092.7	1.000061e-01	0.000000e+00	1.507520e+00	9.286314e+04	-2.119130e+04	0.0000E+00	0	0
22895.6	1.000061e-01	0.000000e+00	1.538805e+00	9.478886e+04	-1.928517e+04	0.0000E+00	0	0
19348.6	1.000061e-01	0.000000e+00	1.578677e+00	9.646147e+04	-1.750133e+04	0.0000E+00	0	0
16351.2	1.000061e-01	0.000000e+00	1.608917e+00	9.792943e+04	-1.585018e+04	0.0000E+00	0	0
13818.1	1.000061e-01	0.000000e+00	1.636992e+00	9.920011e+04	-1.431442e+04	0.0000E+00	0	0
11677.5	1.000061e-01	0.000000e+00	1.658795e+00	1.003098e+05	-1.294163e+04	0.0000E+00	0	0
9868.43	1.000061e-01	0.000000e+00	2.200053e+00	1.013068e+05	-1.158749e+04	0.0000E+00	0	0
8339.65	1.000061e-01	0.000000e+00	2.228203e+00	1.021616e+05	-1.046628e+04	0.0000E+00	0	0
7047.69	1.000061e-01	0.000000e+00	2.262027e+00	1.029122e+05	-9.454920e+03	0.0000E+00	0	0
5955.89	1.000061e-01	0.000000e+00	2.290848e+00	1.036017e+05	-8.551369e+03	0.0000E+00	0	0
5033.22	1.000061e-01	0.000000e+00	2.328480e+00	1.041841e+05	-7.723509e+03	0.0000E+00	0	0
4253.49	1.000061e-01	0.000000e+00	2.361931e+00	1.047305e+05	-6.978267e+03	0.0000E+00	0	0
3594.55	1.000061e-01	0.000000e+00	2.392469e+00	1.052154e+05	-6.311977e+03	0.0000E+00	0	0
3037.69	1.000061e-01	0.000000e+00	2.527467e+00	1.056506e+05	-5.727822e+03	0.0000E+00	0	0
2567.1	1.000061e-01	0.000000e+00	2.662613e+00	1.060395e+05	-5.196490e+03	0.0000E+00	0	0
2169.42	1.000061e-01	0.000000e+00	2.791488e+00	1.064012e+05	-4.729752e+03	0.0000E+00	0	0
1833.34	1.000061e-01	0.000000e+00	2.915584e+00	1.067251e+05	-4.314486e+03	0.0000E+00	0	0
1549.32	1.000061e-01	0.000000e+00	3.044235e+00	1.069975e+05	-3.939527e+03	0.0000E+00	0	0
1309.31	1.000061e-01	0.000000e+00	3.181323e+00	1.073008e+05	-3.617932e+03	0.0000E+00	0	0
1106.47	1.000061e-01	0.000000e+00	3.315648e+00	1.075567e+05	-3.319151e+03	0.0000E+00	0	0
935.061	1.000061e-01	0.000000e+00	3.444075e+00	1.077870e+05	-3.066034e+03	0.0000E+00	0	0
790.204	1.000061e-01	0.000000e+00	3.572700e+00	1.080108e+05	-2.833862e+03	0.0000E+00	0	0
667.788	1.000061e-01	0.000000e+00	3.701165e+00	1.082094e+05	-2.646054e+03	0.0000E+00	0	0
564.337	1.000061e-01	0.000000e+00	3.838513e+00	1.083964e+05	-2.477550e+03	0.0000E+00	0	0
476.911	1.000061e-01	0.000000e+00	3.977517e+00	1.085783e+05	-2.329582e+03	0.0000E+00	0	0
403.03	1.000061e-01	0.000000e+00	4.117816e+00	1.087381e+05	-2.220854e+03	0.0000E+00	0	0
340.594	1.000061e-01	0.000000e+00	4.271525e+00	1.089085e+05	-2.107565e+03	0.0000E+00	0	0
287.83	1.000061e-01	0.000000e+00	4.422506e+00	1.090586e+05	-2.037510e+03	0.0000E+00	0	0
243.24	1.000061e-01	0.000000e+00	4.572229e+00	1.091979e+05	-1.992619e+03	0.0000E+00	0	0
205.558	1.000061e-01	0.000000e+00	4.732008e+00	1.093563e+05	-1.931481e+03	0.0000E+00	0	0
173.714	1.000061e-01	0.000000e+00	4.896587e+00	1.095129e+05	-1.915432e+03	0.0000E+00	0	0
146.803	1.000061e-01	0.000000e+00	5.069335e+00	1.097496e+05	-1.922650e+03	0.0000E+00	0	0
124.06	1.000061e-01	0.000000e+00	5.257771e+00	1.097814e+05	-1.928542e+03	0.0000E+00	0	0
104.841	1.000061e-01	0.000000e+00	5.458855e+00	1.099270e+05	-1.962671e+03	0.0000E+00	0	0
88.5996	1.000061e-01	0.000000e+00	5.674745e+00	1.100675e+05	-2.019856e+03	0.0000E+00	0	0
74.874	1.000061e-01	0.000000e+00	5.894007e+00	1.102122e+05	-2.103355e+03	0.0000E+00	0	0
63.2748	1.000061e-01	0.000000e+00	6.143843e+00	1.103399e+05	-2.189767e+03	0.0000E+00	0	0
53.4724	1.000061e-01	0.000000e+00	6.426595e+00	1.102126e+05	-2.559997e+03	0.0000E+00	0	0
45.1887	1.000061e-01	0.000000e+00	6.737395e+00	1.107760e+05	-2.599743e+03	0.0000E+00	0	0
38.1882	1.000061e-01	0.000000e+00	7.102192e+00	1.108700e+05	-2.659857e+03	0.0000E+00	0	0
32.2722	1.000061e-01	0.000000e+00	7.546834e+00	1.110440e+05	-2.880586e+03	0.0000E+00	0	0
27.2727	1.000061e-01	0.000000e+00	8.032989e+00	1.112434e+05	-3.132330e+03	0.0000E+00	0	0
23.0477	1.000061e-01	0.000000e+00	8.604989e+00	1.114458e+05	-3.423989e+03	0.0000E+00	0	0
19.4772	1.000061e-01	0.000000e+00	9.254813e+00	1.116668e+05	-3.763552e+03	0.0000E+00	0	0
16.4599	1.000061e-01	0.000000e+00	1.007379e+01	1.119170e+05	-4.157173e+03	0.0000E+00	0	0
13.9099	1.000061e-01	0.000000e+00	1.104072e+01	1.121812e+05	-4.604651e+03	0.0000E+00	0	0
11.7551	1.000061e-01	0.000000e+00	1.171924e+01	1.124786e+05	-5.120384e+03	0.0000E+00	0	0
9.934	1.000061e-01	0.000000e+00	1.204427e+01	1.127781e+05	-5.708506e+03	0.0000E+00	0	0
8.39505	1.000061e-01	0.000000e+00	1.236003e+01	1.131344e+05	-6.369984e+03	0.0000E+00	0	0
7.09452	1.000061e-01	0.000000e+00	1.267931e+01	1.135084e+05	-7.180692e+03	0.0000E+00	0	0
5.99546	1.000061e-01	0.000000e+00	1.302598e+01	1.139009e+05	-8.011147e+03	0.0000E+00	0	0
5.06666	1.000061e-01	0.000000e+00	1.336385e+01	1.144301e+05	-9.033608e+03	0.0000E+00	0	0
4.28175	1.000061e-01	0.000000e+00	1.378751e+01	1.149467e+05	-1.021338e+04	0.0000E+00	0	0
3.61843	1.000061e-01	0.000000e+00	1.421998e+01	1.154802e+05	-1.147017e+04	0.0000E+00	0	0
3.05788	1.000061e-01	0.000000e+00	1.467037e+01	1.162589e+05	-1.299780e+04	0.0000E+00	0	0
2.58416	1.000061e-01	0.000000e+00	1.522096e+01	1.170886e+05	-1.481391e+04	0.0000E+00	0	0
2.18383	1.000061e-01	0.000000e+00	1.577543e+01	1.179461e+05	-1.664700e+04	0.0000E+00	0	0
1.84552	1.000061e-01	0.000000e+00	1.644169e+01	1.190967e+05	-1.855102e+04	0.0000E+00	0	0
1.55962	1.000061e-01	0.000000e+00	1.713302e+01	1.199605e+05	-2.121979e+04	0.0000E+00	0	0
1.318	1.000061e-01	0.000000e+00	1.793509e+01	1.216537e+05	-2.369412e+04	0.0000E+00	0	0
1.11382	1.000061e-01	0.000000e+00	1.884946e+01	1.228673e+05	-2.717781e+04	0.0000E+00	0	0
0.941274	1.000061e-01	0.000000e+00	1.989076e+01	1.244387e+05	-3.013633e+04	0.0000E+00	0	0
0.795454	1.000061e-01	0.000000e+00	2.114546e+01	1.270341e+05	-3.412046e+04	0.0000E+00	0	0
0.672225	1.000061e-01	0.000000e+00	2.255442e+01	1.288528e+05	-3.903798e+04	0.0000E+00	0	0
0.568086	1.000061e-01	0.000000e+00	2.417312e+01	1.305689e+05	-4.372479e+04	0.0000E+00	0	0
0.48008	1.000061e-01	0.000000e+00	2.615507e+01	1.334709e+05	-4.814246e+04	0.0000E+00	0	0
0.405707	1.000061e-01	0.000000e+00	2.837962e+01	1.373642e+05	-5.453510e+04	0.0000E+00	0	0
0.342856	1.000061e-01	0.000000e+00	3.105223e+01	1.413759e+05	-6.193849e+04	0.0000E+00	0	0
0.289742	1.000061e-01	0.000000e+00	3.411566e+01	1.450274e+05	-7.066706e+04	0.0000E+00	0	0
0.244856	1.000061e-01	0.000000e+00	3.773707e+01	1.485792e+05	-7.988386e+04	0.0000E+00	0	0
0.206924	1.000061e-01	0.000000e+00	4.196813e+01	1.526347e+05	-8.994217e+04	0.0000E+00	0	0
0.174868	1.000061e-01	0.000000e+00	4.701888e+01	1.571476e+05	-1.007447e+05	0.0000E+00	0	0
0.147778	1.000061e-01	0.000000e+00	5.291471e+01	1.628715e+05	-1.127889e+05	0.0000E+00	0	0
0.124885	1.000061e-01	0.000000e+00	5.986252e+01	1.695197e+05	-1.266747e+05	0.0000E+00	0	0
0.105538	1.000061e-01	0.000000e+00	6.809497e+01	1.771505e+05	-1.423679e+05	0.0000E+00	0	0
0.0891882	1.000061e-01	0.000000e+00	7.776908e+01	1.862336e+05	-1.606183e+05	0.0000E+00	0	0
0.0753714	1.000061e-01	0.000000e+00	8.919532e+01	1.962143e+05	-1.816610e+05	0.0000E+00	0	0
0.0636952	1.000061e-01	0.000000e+00	1.026533e+02	2.076302e+05	-2.059545e+05	0.0000E+00	0	0
0.0538277	1.000061e-01	0.000000e+00	1.184901e+02	2.198583e+05	-2.338462e+05	0.0000E+00	0	0
0.0454889	1.000061e-01	0.000000e+00	1.372697e+02	2.343001e+05	-2.659717e+05	0.0000E+00	0	0
0.0384418	1.000061e-01	0.000000e+00	1.594782e+02	2.506688e+05	-3.029798e+05	0.0000E+00	0	0
0.0324867	1.000061e-01	0.000000e+00	1.862917e+02	2.688748e+05	-3.461675e+05	0.0000E+00	0	0
0.0274539	1.000061e-01	0.000000e+00	2.171897e+02	2.880254e+05	-3.921381e+05	0.0000E+00	0	0
0.0232009	1.000061e-01	0.000000e+00	2.538096e+02	3.137759e+05	-4.483767e+05	0.0000E+00	0	0
0.0196065	1.000061e-01	0.000000e+00	2.970928e+02	3.448048e+05	-5.099798e+05	0.0000E+00	0	0
0.0165691	1.000061e-01	0.000000e+00	3.482856e+02	3.727478e+05	-5.866324e+05	0.0000E+00	0	0
0.0140025	1.000061e-01	0.000000e+00	4.088404e+02	4.125890e+05	-6.643506e+05	0.0000E+00	0	0
0.0118331	1.000061e-01	0.000000e+00	4.803980e+02	4.598886e+05	-7.535685e+05	0.0000E+00	0	0
0.00999989	1.000061e-01	0.000000e+00	5.650991e+02	5.133683e+05	-8.670968e+05	0.0000E+00	0	0